onset	duration	stim	stim_file	response	response_time	correct	spaced	stimvalue	query_onset
2.0278045	1.5	7	136.jpg	n/a	n/a	n/a	1	1	n/a
5.2572288	1.5	5	103.jpg	n/a	n/a	n/a	1	1	n/a
8.2340289	1.5	8	104.jpg	n/a	n/a	n/a	1	0	n/a
10.527141	1.5	6	119.jpg	n/a	n/a	n/a	1	0	n/a
12.489594	1.5	3	108.jpg	n/a	n/a	n/a	1	1	n/a
15.51741	1.5	1	138.jpg	n/a	n/a	n/a	1	1	n/a
17.97098	1.5	9	105.jpg	n/a	n/a	n/a	0	1	n/a
20.531781	1.5	15	106.jpg	n/a	n/a	n/a	0	1	n/a
22.539164	1.5	16	122.jpg	n/a	n/a	n/a	0	0	n/a
25.209272	1.5	5	103.jpg	1	1.7599839	1	1	1	27.709272
33.674295	1.5	12	114.jpg	n/a	n/a	n/a	0	0	n/a
36.87494	1.5	7	136.jpg	n/a	n/a	n/a	1	1	n/a
39.465288	1.5	1	138.jpg	n/a	n/a	n/a	1	1	n/a
42.174011	1.5	16	122.jpg	2	0.55315495	1	0	0	44.674011
48.706411	1.5	8	104.jpg	n/a	n/a	n/a	1	0	n/a
51.840346	1.5	6	119.jpg	n/a	n/a	n/a	1	0	n/a
54.75421	1.5	15	106.jpg	n/a	n/a	n/a	0	1	n/a
56.631256	1.5	9	105.jpg	n/a	n/a	n/a	0	1	n/a
58.687543	1.5	2	137.jpg	n/a	n/a	n/a	1	0	n/a
61.214469	1.5	4	123.jpg	n/a	n/a	n/a	1	0	n/a
63.020286	1.5	10	117.jpg	n/a	n/a	n/a	0	0	n/a
66.081009	1.5	12	114.jpg	n/a	n/a	n/a	0	0	n/a
67.997746	1.5	13	135.jpg	n/a	n/a	n/a	0	1	n/a
70.654362	1.5	9	105.jpg	n/a	n/a	n/a	0	1	n/a
73.894264	1.5	10	117.jpg	n/a	n/a	n/a	0	0	n/a
75.82787	1.5	16	122.jpg	n/a	n/a	n/a	0	0	n/a
77.61205	1.5	11	134.jpg	n/a	n/a	n/a	0	1	n/a
79.745202	1.5	13	135.jpg	n/a	n/a	n/a	0	1	n/a
82.804454	1.5	12	114.jpg	n/a	n/a	n/a	0	0	n/a
84.684934	1.5	6	119.jpg	2	1.0615619	1	1	0	87.184934
91.384451	1.5	14	118.jpg	n/a	n/a	n/a	0	0	n/a
93.768199	1.5	5	103.jpg	n/a	n/a	n/a	1	1	n/a
96.100623	1.5	3	108.jpg	n/a	n/a	n/a	1	1	n/a
98.455273	1.5	2	137.jpg	n/a	n/a	n/a	1	0	n/a
100.4454	1.5	8	104.jpg	n/a	n/a	n/a	1	0	n/a
102.92465	1.5	1	138.jpg	n/a	n/a	n/a	1	1	n/a
105.54133	1.5	3	108.jpg	n/a	n/a	n/a	1	1	n/a
107.7779	1.5	11	134.jpg	n/a	n/a	n/a	0	1	n/a
109.73122	1.5	13	135.jpg	n/a	n/a	n/a	0	1	n/a
111.59779	1.5	4	123.jpg	n/a	n/a	n/a	1	0	n/a
113.82464	1.5	6	119.jpg	n/a	n/a	n/a	1	0	n/a
116.39014	1.5	11	134.jpg	1	1.1927289	1	0	1	118.89014
123.14113	1.5	1	138.jpg	n/a	n/a	n/a	1	1	n/a
126.2683	1.5	3	108.jpg	n/a	n/a	n/a	1	1	n/a
128.0833	1.5	6	119.jpg	n/a	n/a	n/a	1	0	n/a
130.07937	1.5	8	104.jpg	2	0.70205276	1	1	0	132.57937
136.57449	1.5	2	137.jpg	n/a	n/a	n/a	1	0	n/a
139.45511	1.5	12	114.jpg	n/a	n/a	n/a	0	0	n/a
142.66906	1.5	10	117.jpg	n/a	n/a	n/a	0	0	n/a
145.86608	1.5	9	105.jpg	n/a	n/a	n/a	0	1	n/a
148.5465	1.5	11	134.jpg	n/a	n/a	n/a	0	1	n/a
151.43377	1.5	16	122.jpg	n/a	n/a	n/a	0	0	n/a
154.14808	1.5	10	117.jpg	n/a	n/a	n/a	0	0	n/a
157.27486	1.5	7	136.jpg	n/a	n/a	n/a	1	1	n/a
159.6686	1.5	3	108.jpg	1	0.63381407	1	1	1	162.1686
165.83254	1.5	5	103.jpg	n/a	n/a	n/a	1	1	n/a
168.11824	1.5	2	137.jpg	n/a	n/a	n/a	1	0	n/a
170.60172	1.5	6	119.jpg	n/a	n/a	n/a	1	0	n/a
173.15495	1.5	14	118.jpg	n/a	n/a	n/a	0	0	n/a
176.2351	1.5	12	114.jpg	n/a	n/a	n/a	0	0	n/a
178.03831	1.5	11	134.jpg	n/a	n/a	n/a	0	1	n/a
180.05823	1.5	15	106.jpg	n/a	n/a	n/a	0	1	n/a
183.23581	1.5	12	114.jpg	n/a	n/a	n/a	0	0	n/a
185.69847	1.5	16	122.jpg	n/a	n/a	n/a	0	0	n/a
188.12501	1.5	6	119.jpg	n/a	n/a	n/a	1	0	n/a
190.20177	1.5	8	104.jpg	n/a	n/a	n/a	1	0	n/a
192.46509	1.5	9	105.jpg	n/a	n/a	n/a	0	1	n/a
194.79236	1.5	11	134.jpg	n/a	n/a	n/a	0	1	n/a
197.64846	1.5	14	118.jpg	n/a	n/a	n/a	0	0	n/a
200.76517	1.5	10	117.jpg	n/a	n/a	n/a	0	0	n/a
202.54188	1.5	6	119.jpg	n/a	n/a	n/a	1	0	n/a
204.74841	1.5	14	118.jpg	2	0.36098939	1	0	0	207.24841
211.49207	1.5	4	123.jpg	n/a	n/a	n/a	1	0	n/a
213.61856	1.5	3	108.jpg	n/a	n/a	n/a	1	1	n/a
215.43118	1.5	1	138.jpg	n/a	n/a	n/a	1	1	n/a
217.99797	1.5	15	106.jpg	n/a	n/a	n/a	0	1	n/a
219.82517	1.5	9	105.jpg	n/a	n/a	n/a	0	1	n/a
222.38082	1.5	4	123.jpg	2	0.52158457	1	1	0	224.88082
229.45971	1.5	3	108.jpg	n/a	n/a	n/a	1	1	n/a
232.33702	1.5	5	103.jpg	n/a	n/a	n/a	1	1	n/a
234.34174	1.5	8	104.jpg	n/a	n/a	n/a	1	0	n/a
236.56136	1.5	2	137.jpg	n/a	n/a	n/a	1	0	n/a
239.61549	1.5	7	136.jpg	n/a	n/a	n/a	1	1	n/a
241.72557	1.5	9	105.jpg	1	0.84809534	1	0	1	244.22557
248.12642	1.5	3	108.jpg	n/a	n/a	n/a	1	1	n/a
250.92717	1.5	14	118.jpg	n/a	n/a	n/a	0	0	n/a
253.43677	1.5	16	122.jpg	n/a	n/a	n/a	0	0	n/a
255.97441	1.5	13	135.jpg	n/a	n/a	n/a	0	1	n/a
259.14814	1.5	15	106.jpg	n/a	n/a	n/a	0	1	n/a
261.20545	1.5	5	103.jpg	n/a	n/a	n/a	1	1	n/a
264.16244	1.5	7	136.jpg	n/a	n/a	n/a	1	1	n/a
267.15303	1.5	11	134.jpg	n/a	n/a	n/a	0	1	n/a
270.04464	1.5	9	105.jpg	n/a	n/a	n/a	0	1	n/a
271.90509	1.5	10	117.jpg	n/a	n/a	n/a	0	0	n/a
274.92566	1.5	14	118.jpg	n/a	n/a	n/a	0	0	n/a
276.94154	1.5	2	137.jpg	n/a	n/a	n/a	1	0	n/a
279.50913	1.5	4	123.jpg	n/a	n/a	n/a	1	0	n/a
281.78446	1.5	15	106.jpg	n/a	n/a	n/a	0	1	n/a
284.43888	1.5	13	135.jpg	n/a	n/a	n/a	0	1	n/a
286.83902	1.5	1	138.jpg	1	0.42609405	1	1	1	289.33902
293.75702	1.5	16	122.jpg	n/a	n/a	n/a	0	0	n/a
295.89543	1.5	14	118.jpg	n/a	n/a	n/a	0	0	n/a
298.33563	1.5	3	108.jpg	n/a	n/a	n/a	1	1	n/a
300.30904	1.5	5	103.jpg	n/a	n/a	n/a	1	1	n/a
302.78574	1.5	4	123.jpg	n/a	n/a	n/a	1	0	n/a
304.93901	1.5	2	137.jpg	n/a	n/a	n/a	1	0	n/a
307.66909	1.5	7	136.jpg	n/a	n/a	n/a	1	1	n/a
310.21221	1.5	1	138.jpg	n/a	n/a	n/a	1	1	n/a
313.22521	1.5	12	114.jpg	n/a	n/a	n/a	0	0	n/a
316.1224	1.5	2	137.jpg	1	1.2584051	0	1	0	318.6224
323.11242	1.5	14	118.jpg	n/a	n/a	n/a	0	0	n/a
325.79625	1.5	6	119.jpg	n/a	n/a	n/a	1	0	n/a
328.65967	1.5	8	104.jpg	n/a	n/a	n/a	1	0	n/a
331.59695	1.5	14	118.jpg	n/a	n/a	n/a	0	0	n/a
334.53091	1.5	16	122.jpg	n/a	n/a	n/a	0	0	n/a
337.30344	1.5	9	105.jpg	n/a	n/a	n/a	0	1	n/a
339.99845	1.5	7	136.jpg	1	0.351174	1	1	1	342.49845
345.90967	1.5	13	135.jpg	n/a	n/a	n/a	0	1	n/a
347.8	1.5	10	117.jpg	n/a	n/a	n/a	0	0	n/a
350.17032	1.5	12	114.jpg	n/a	n/a	n/a	0	0	n/a
353.28724	1.5	4	123.jpg	n/a	n/a	n/a	1	0	n/a
356.42448	1.5	6	119.jpg	n/a	n/a	n/a	1	0	n/a
359.01846	1.5	13	135.jpg	n/a	n/a	n/a	0	1	n/a
361.12291	1.5	15	106.jpg	n/a	n/a	n/a	0	1	n/a
364.13895	1.5	1	138.jpg	n/a	n/a	n/a	1	1	n/a
367.26623	1.5	7	136.jpg	n/a	n/a	n/a	1	1	n/a
369.48283	1.5	4	123.jpg	n/a	n/a	n/a	1	0	n/a
371.62955	1.5	2	137.jpg	n/a	n/a	n/a	1	0	n/a
374.76152	1.5	1	138.jpg	n/a	n/a	n/a	1	1	n/a
377.62471	1.5	5	103.jpg	n/a	n/a	n/a	1	1	n/a
379.39206	1.5	11	134.jpg	n/a	n/a	n/a	0	1	n/a
382.45891	1.5	13	135.jpg	1	0.61128306	1	0	1	384.95891
388.50295	1.5	9	105.jpg	n/a	n/a	n/a	0	1	n/a
391.71625	1.5	5	103.jpg	n/a	n/a	n/a	1	1	n/a
394.08389	1.5	1	138.jpg	n/a	n/a	n/a	1	1	n/a
396.34944	1.5	8	104.jpg	n/a	n/a	n/a	1	0	n/a
399.40627	1.5	2	137.jpg	n/a	n/a	n/a	1	0	n/a
402.35633	1.5	10	117.jpg	2	0.44682448	1	0	0	404.85633
408.3261	1.5	16	122.jpg	n/a	n/a	n/a	0	0	n/a
411.19297	1.5	10	117.jpg	n/a	n/a	n/a	0	0	n/a
413.41982	1.5	15	106.jpg	n/a	n/a	n/a	0	1	n/a
415.57296	1.5	13	135.jpg	n/a	n/a	n/a	0	1	n/a
417.82339	1.5	5	103.jpg	n/a	n/a	n/a	1	1	n/a
419.80292	1.5	7	136.jpg	n/a	n/a	n/a	1	1	n/a
421.9866	1.5	4	123.jpg	n/a	n/a	n/a	1	0	n/a
424.32001	1.5	8	104.jpg	n/a	n/a	n/a	1	0	n/a
427.30087	1.5	13	135.jpg	n/a	n/a	n/a	0	1	n/a
429.99697	1.5	15	106.jpg	1	0.97966938	1	0	1	432.49697
437.10385	1.5	11	134.jpg	n/a	n/a	n/a	0	1	n/a
439.12851	1.5	16	122.jpg	n/a	n/a	n/a	0	0	n/a
441.6858	1.5	14	118.jpg	n/a	n/a	n/a	0	0	n/a
444.20264	1.5	3	108.jpg	n/a	n/a	n/a	1	1	n/a
446.09	1.5	7	136.jpg	n/a	n/a	n/a	1	1	n/a
448.30326	1.5	8	104.jpg	n/a	n/a	n/a	1	0	n/a
451.53895	1.5	4	123.jpg	n/a	n/a	n/a	1	0	n/a
454.26201	1.5	12	114.jpg	2	1.2162472	1	0	0	456.76201
462.05823	1.5	15	106.jpg	n/a	n/a	n/a	0	1	n/a
464.24239	1.5	11	134.jpg	n/a	n/a	n/a	0	1	n/a
466.50481	1.5	12	114.jpg	n/a	n/a	n/a	0	0	n/a
469.2222	1.5	10	117.jpg	n/a	n/a	n/a	0	0	n/a
