onset	duration	stim	stim_file	response	response_time	correct	spaced	stimvalue	query_onset
2.0339629	1.5	7	131.jpg	n/a	n/a	n/a	1	1	n/a
5.2608266	1.5	5	132.jpg	n/a	n/a	n/a	1	1	n/a
8.2402738	1.5	8	110.jpg	n/a	n/a	n/a	1	0	n/a
10.534148	1.5	6	137.jpg	n/a	n/a	n/a	1	0	n/a
12.497802	1.5	3	114.jpg	n/a	n/a	n/a	1	1	n/a
15.524611	1.5	1	128.jpg	n/a	n/a	n/a	1	1	n/a
17.97835	1.5	9	135.jpg	n/a	n/a	n/a	0	1	n/a
20.538917	1.5	15	107.jpg	n/a	n/a	n/a	0	1	n/a
22.545965	1.5	16	121.jpg	n/a	n/a	n/a	0	0	n/a
25.217482	1.5	5	132.jpg	-1	n/a	n/a	1	1	n/a
35.447557	1.5	12	106.jpg	n/a	n/a	n/a	0	0	n/a
38.649776	1.5	7	131.jpg	n/a	n/a	n/a	1	1	n/a
41.23935	1.5	1	128.jpg	n/a	n/a	n/a	1	1	n/a
43.943504	1.5	16	121.jpg	1	0.77752886	0	0	0	46.443504
50.706659	1.5	8	110.jpg	n/a	n/a	n/a	1	0	n/a
53.839844	1.5	6	137.jpg	n/a	n/a	n/a	1	0	n/a
56.754097	1.5	15	107.jpg	n/a	n/a	n/a	0	1	n/a
58.630198	1.5	9	135.jpg	n/a	n/a	n/a	0	1	n/a
60.685608	1.5	2	117.jpg	n/a	n/a	n/a	1	0	n/a
63.213564	1.5	4	119.jpg	n/a	n/a	n/a	1	0	n/a
65.019881	1.5	10	129.jpg	n/a	n/a	n/a	0	0	n/a
68.088139	1.5	12	106.jpg	n/a	n/a	n/a	0	0	n/a
70.003817	1.5	13	109.jpg	n/a	n/a	n/a	0	1	n/a
72.659924	1.5	9	135.jpg	n/a	n/a	n/a	0	1	n/a
75.90015	1.5	10	129.jpg	n/a	n/a	n/a	0	0	n/a
77.840426	1.5	16	121.jpg	n/a	n/a	n/a	0	0	n/a
79.623475	1.5	11	108.jpg	n/a	n/a	n/a	0	1	n/a
81.756859	1.5	13	109.jpg	n/a	n/a	n/a	0	1	n/a
84.810234	1.5	12	106.jpg	n/a	n/a	n/a	0	0	n/a
86.689793	1.5	6	137.jpg	2	0.96650471	1	1	0	89.189793
93.290426	1.5	14	126.jpg	n/a	n/a	n/a	0	0	n/a
95.673692	1.5	5	132.jpg	n/a	n/a	n/a	1	1	n/a
98.007213	1.5	3	114.jpg	n/a	n/a	n/a	1	1	n/a
100.36044	1.5	2	117.jpg	n/a	n/a	n/a	1	0	n/a
102.35047	1.5	8	110.jpg	n/a	n/a	n/a	1	0	n/a
104.81354	1.5	1	128.jpg	n/a	n/a	n/a	1	1	n/a
107.4306	1.5	3	114.jpg	n/a	n/a	n/a	1	1	n/a
109.66491	1.5	11	108.jpg	n/a	n/a	n/a	0	1	n/a
111.62123	1.5	13	109.jpg	n/a	n/a	n/a	0	1	n/a
113.48782	1.5	4	119.jpg	n/a	n/a	n/a	1	0	n/a
115.71511	1.5	6	137.jpg	n/a	n/a	n/a	1	0	n/a
118.28228	1.5	11	108.jpg	1	0.68426667	1	0	1	120.78228
124.53346	1.5	1	128.jpg	n/a	n/a	n/a	1	1	n/a
127.65992	1.5	3	114.jpg	n/a	n/a	n/a	1	1	n/a
129.47395	1.5	6	137.jpg	n/a	n/a	n/a	1	0	n/a
131.47098	1.5	8	110.jpg	2	0.98144041	1	1	0	133.97098
138.26454	1.5	2	117.jpg	n/a	n/a	n/a	1	0	n/a
141.14399	1.5	12	106.jpg	n/a	n/a	n/a	0	0	n/a
144.35763	1.5	10	129.jpg	n/a	n/a	n/a	0	0	n/a
147.55794	1.5	9	135.jpg	n/a	n/a	n/a	0	1	n/a
150.23064	1.5	11	108.jpg	n/a	n/a	n/a	0	1	n/a
153.12435	1.5	16	121.jpg	n/a	n/a	n/a	0	0	n/a
155.83732	1.5	10	129.jpg	n/a	n/a	n/a	0	0	n/a
158.96401	1.5	7	131.jpg	n/a	n/a	n/a	1	1	n/a
161.35863	1.5	3	114.jpg	1	0.5203593	1	1	1	163.85863
167.40599	1.5	5	132.jpg	n/a	n/a	n/a	1	1	n/a
169.69088	1.5	2	117.jpg	n/a	n/a	n/a	1	0	n/a
172.17434	1.5	6	137.jpg	n/a	n/a	n/a	1	0	n/a
174.72753	1.5	14	126.jpg	n/a	n/a	n/a	0	0	n/a
177.8075	1.5	12	106.jpg	n/a	n/a	n/a	0	0	n/a
179.61078	1.5	11	108.jpg	n/a	n/a	n/a	0	1	n/a
181.6309	1.5	15	107.jpg	n/a	n/a	n/a	0	1	n/a
184.79759	1.5	12	106.jpg	n/a	n/a	n/a	0	0	n/a
187.25326	1.5	16	121.jpg	n/a	n/a	n/a	0	0	n/a
189.68049	1.5	6	137.jpg	n/a	n/a	n/a	1	0	n/a
191.7577	1.5	8	110.jpg	n/a	n/a	n/a	1	0	n/a
194.02098	1.5	9	135.jpg	n/a	n/a	n/a	0	1	n/a
196.34771	1.5	11	108.jpg	n/a	n/a	n/a	0	1	n/a
199.20446	1.5	14	126.jpg	n/a	n/a	n/a	0	0	n/a
202.32094	1.5	10	129.jpg	n/a	n/a	n/a	0	0	n/a
204.0976	1.5	6	137.jpg	n/a	n/a	n/a	1	0	n/a
206.3043	1.5	14	126.jpg	2	0.8247142	1	0	0	208.8043
213.49797	1.5	4	119.jpg	n/a	n/a	n/a	1	0	n/a
215.62502	1.5	3	114.jpg	n/a	n/a	n/a	1	1	n/a
217.43875	1.5	1	128.jpg	n/a	n/a	n/a	1	1	n/a
220.0085	1.5	15	107.jpg	n/a	n/a	n/a	0	1	n/a
221.83281	1.5	9	135.jpg	n/a	n/a	n/a	0	1	n/a
224.38994	1.5	4	119.jpg	2	0.91418523	1	1	0	226.88994
231.88313	1.5	3	114.jpg	n/a	n/a	n/a	1	1	n/a
234.7614	1.5	5	132.jpg	n/a	n/a	n/a	1	1	n/a
236.76441	1.5	8	110.jpg	n/a	n/a	n/a	1	0	n/a
238.98553	1.5	2	117.jpg	n/a	n/a	n/a	1	0	n/a
242.04219	1.5	7	131.jpg	n/a	n/a	n/a	1	1	n/a
244.14974	1.5	9	135.jpg	1	0.70272437	1	0	1	246.64974
250.40051	1.5	3	114.jpg	n/a	n/a	n/a	1	1	n/a
253.19943	1.5	14	126.jpg	n/a	n/a	n/a	0	0	n/a
255.70983	1.5	16	121.jpg	n/a	n/a	n/a	0	0	n/a
258.24878	1.5	13	109.jpg	n/a	n/a	n/a	0	1	n/a
261.42156	1.5	15	107.jpg	n/a	n/a	n/a	0	1	n/a
263.47816	1.5	5	132.jpg	n/a	n/a	n/a	1	1	n/a
266.43706	1.5	7	131.jpg	n/a	n/a	n/a	1	1	n/a
269.43503	1.5	11	108.jpg	n/a	n/a	n/a	0	1	n/a
272.32761	1.5	9	135.jpg	n/a	n/a	n/a	0	1	n/a
274.18824	1.5	10	129.jpg	n/a	n/a	n/a	0	0	n/a
277.21471	1.5	14	126.jpg	n/a	n/a	n/a	0	0	n/a
279.23246	1.5	2	117.jpg	n/a	n/a	n/a	1	0	n/a
281.79939	1.5	4	119.jpg	n/a	n/a	n/a	1	0	n/a
284.08115	1.5	15	107.jpg	n/a	n/a	n/a	0	1	n/a
286.72822	1.5	13	109.jpg	n/a	n/a	n/a	0	1	n/a
289.12745	1.5	1	128.jpg	1	0.73616458	1	1	1	291.62745
296.35163	1.5	16	121.jpg	n/a	n/a	n/a	0	0	n/a
298.50159	1.5	14	126.jpg	n/a	n/a	n/a	0	0	n/a
300.93948	1.5	3	114.jpg	n/a	n/a	n/a	1	1	n/a
302.91498	1.5	5	132.jpg	n/a	n/a	n/a	1	1	n/a
305.39162	1.5	4	119.jpg	n/a	n/a	n/a	1	0	n/a
307.54447	1.5	2	117.jpg	n/a	n/a	n/a	1	0	n/a
310.27494	1.5	7	131.jpg	n/a	n/a	n/a	1	1	n/a
312.81769	1.5	1	128.jpg	n/a	n/a	n/a	1	1	n/a
315.83186	1.5	12	106.jpg	n/a	n/a	n/a	0	0	n/a
318.72886	1.5	2	117.jpg	2	0.73356924	1	1	0	321.22886
325.20259	1.5	14	126.jpg	n/a	n/a	n/a	0	0	n/a
327.90368	1.5	6	137.jpg	n/a	n/a	n/a	1	0	n/a
330.78408	1.5	8	110.jpg	n/a	n/a	n/a	1	0	n/a
333.72122	1.5	14	126.jpg	n/a	n/a	n/a	0	0	n/a
336.6732	1.5	16	121.jpg	n/a	n/a	n/a	0	0	n/a
339.4621	1.5	9	135.jpg	n/a	n/a	n/a	0	1	n/a
342.15587	1.5	7	131.jpg	1	0.77116201	1	1	1	344.65587
348.48358	1.5	13	109.jpg	n/a	n/a	n/a	0	1	n/a
350.3741	1.5	10	129.jpg	n/a	n/a	n/a	0	0	n/a
352.74459	1.5	12	106.jpg	n/a	n/a	n/a	0	0	n/a
355.86158	1.5	4	119.jpg	n/a	n/a	n/a	1	0	n/a
358.9987	1.5	6	137.jpg	n/a	n/a	n/a	1	0	n/a
361.59262	1.5	13	109.jpg	n/a	n/a	n/a	0	1	n/a
363.70396	1.5	15	107.jpg	n/a	n/a	n/a	0	1	n/a
366.71972	1.5	1	128.jpg	n/a	n/a	n/a	1	1	n/a
369.8478	1.5	7	131.jpg	n/a	n/a	n/a	1	1	n/a
372.06434	1.5	4	119.jpg	n/a	n/a	n/a	1	0	n/a
374.21066	1.5	2	117.jpg	n/a	n/a	n/a	1	0	n/a
377.34195	1.5	1	128.jpg	n/a	n/a	n/a	1	1	n/a
380.2054	1.5	5	132.jpg	n/a	n/a	n/a	1	1	n/a
381.97118	1.5	11	108.jpg	n/a	n/a	n/a	0	1	n/a
385.03912	1.5	13	109.jpg	1	0.68459725	1	0	1	387.53912
391.15871	1.5	9	135.jpg	n/a	n/a	n/a	0	1	n/a
394.36924	1.5	5	132.jpg	n/a	n/a	n/a	1	1	n/a
396.73866	1.5	1	128.jpg	n/a	n/a	n/a	1	1	n/a
399.00557	1.5	8	110.jpg	n/a	n/a	n/a	1	0	n/a
402.06361	1.5	2	117.jpg	n/a	n/a	n/a	1	0	n/a
405.01219	1.5	10	129.jpg	2	0.8211117	1	0	0	407.51219
411.34888	1.5	16	121.jpg	n/a	n/a	n/a	0	0	n/a
414.21542	1.5	10	129.jpg	n/a	n/a	n/a	0	0	n/a
416.44219	1.5	15	107.jpg	n/a	n/a	n/a	0	1	n/a
418.59575	1.5	13	109.jpg	n/a	n/a	n/a	0	1	n/a
420.84585	1.5	5	132.jpg	n/a	n/a	n/a	1	1	n/a
422.82609	1.5	7	131.jpg	n/a	n/a	n/a	1	1	n/a
425.00999	1.5	4	119.jpg	n/a	n/a	n/a	1	0	n/a
427.34329	1.5	8	110.jpg	n/a	n/a	n/a	1	0	n/a
430.32712	1.5	13	109.jpg	n/a	n/a	n/a	0	1	n/a
433.02047	1.5	15	107.jpg	1	0.6018124	1	0	1	435.52047
439.74552	1.5	11	108.jpg	n/a	n/a	n/a	0	1	n/a
441.76932	1.5	16	121.jpg	n/a	n/a	n/a	0	0	n/a
444.32634	1.5	14	126.jpg	n/a	n/a	n/a	0	0	n/a
446.84407	1.5	3	114.jpg	n/a	n/a	n/a	1	1	n/a
448.73055	1.5	7	131.jpg	n/a	n/a	n/a	1	1	n/a
450.94392	1.5	8	110.jpg	n/a	n/a	n/a	1	0	n/a
454.18125	1.5	4	119.jpg	n/a	n/a	n/a	1	0	n/a
456.90511	1.5	12	106.jpg	2	0.66261547	1	0	0	459.40511
464.16551	1.5	15	107.jpg	n/a	n/a	n/a	0	1	n/a
466.35008	1.5	11	108.jpg	n/a	n/a	n/a	0	1	n/a
468.61369	1.5	12	106.jpg	n/a	n/a	n/a	0	0	n/a
471.3308	1.5	10	129.jpg	n/a	n/a	n/a	0	0	n/a
