onset	duration	stim	stim_file	response	response_time	correct	spaced	stimvalue	query_onset
2.0239507	1.5	7	101.jpg	n/a	n/a	n/a	1	1	n/a
5.2530391	1.5	5	136.jpg	n/a	n/a	n/a	1	1	n/a
8.2299874	1.5	8	137.jpg	n/a	n/a	n/a	1	0	n/a
10.523491	1.5	6	110.jpg	n/a	n/a	n/a	1	0	n/a
12.487957	1.5	3	106.jpg	n/a	n/a	n/a	1	1	n/a
15.513271	1.5	1	132.jpg	n/a	n/a	n/a	1	1	n/a
17.966457	1.5	9	105.jpg	n/a	n/a	n/a	0	1	n/a
20.526451	1.5	15	122.jpg	n/a	n/a	n/a	0	1	n/a
22.533859	1.5	16	114.jpg	n/a	n/a	n/a	0	0	n/a
25.203863	1.5	5	136.jpg	-1	n/a	n/a	1	1	n/a
35.418497	1.5	12	135.jpg	n/a	n/a	n/a	0	0	n/a
38.620453	1.5	7	101.jpg	n/a	n/a	n/a	1	1	n/a
41.209844	1.5	1	132.jpg	n/a	n/a	n/a	1	1	n/a
43.9039	1.5	16	114.jpg	1	0.70495196	0	0	0	46.4039
50.584578	1.5	8	137.jpg	n/a	n/a	n/a	1	0	n/a
53.717823	1.5	6	110.jpg	n/a	n/a	n/a	1	0	n/a
56.631774	1.5	15	122.jpg	n/a	n/a	n/a	0	1	n/a
58.503938	1.5	9	105.jpg	n/a	n/a	n/a	0	1	n/a
60.556326	1.5	2	104.jpg	n/a	n/a	n/a	1	0	n/a
63.076031	1.5	4	112.jpg	n/a	n/a	n/a	1	0	n/a
64.874434	1.5	10	120.jpg	n/a	n/a	n/a	0	0	n/a
67.935776	1.5	12	135.jpg	n/a	n/a	n/a	0	0	n/a
69.851429	1.5	13	124.jpg	n/a	n/a	n/a	0	1	n/a
72.508806	1.5	9	105.jpg	n/a	n/a	n/a	0	1	n/a
75.74834	1.5	10	120.jpg	n/a	n/a	n/a	0	0	n/a
77.681232	1.5	16	114.jpg	n/a	n/a	n/a	0	0	n/a
79.464256	1.5	11	131.jpg	n/a	n/a	n/a	0	1	n/a
81.597294	1.5	13	124.jpg	n/a	n/a	n/a	0	1	n/a
84.650622	1.5	12	135.jpg	n/a	n/a	n/a	0	0	n/a
86.531475	1.5	6	110.jpg	1	0.67864616	0	1	0	89.031475
92.847871	1.5	14	127.jpg	n/a	n/a	n/a	0	0	n/a
95.231053	1.5	5	136.jpg	n/a	n/a	n/a	1	1	n/a
97.563826	1.5	3	106.jpg	n/a	n/a	n/a	1	1	n/a
99.917885	1.5	2	104.jpg	n/a	n/a	n/a	1	0	n/a
101.90776	1.5	8	137.jpg	n/a	n/a	n/a	1	0	n/a
104.38347	1.5	1	132.jpg	n/a	n/a	n/a	1	1	n/a
107.00406	1.5	3	106.jpg	n/a	n/a	n/a	1	1	n/a
109.24196	1.5	11	131.jpg	n/a	n/a	n/a	0	1	n/a
111.19517	1.5	13	124.jpg	n/a	n/a	n/a	0	1	n/a
113.06089	1.5	4	112.jpg	n/a	n/a	n/a	1	0	n/a
115.28717	1.5	6	110.jpg	n/a	n/a	n/a	1	0	n/a
117.854	1.5	11	131.jpg	1	0.63855369	1	0	1	120.354
124.05425	1.5	1	132.jpg	n/a	n/a	n/a	1	1	n/a
127.18084	1.5	3	106.jpg	n/a	n/a	n/a	1	1	n/a
128.99516	1.5	6	110.jpg	n/a	n/a	n/a	1	0	n/a
130.97515	1.5	8	137.jpg	1	0.55570839	0	1	0	133.47515
137.31954	1.5	2	104.jpg	n/a	n/a	n/a	1	0	n/a
140.20005	1.5	12	135.jpg	n/a	n/a	n/a	0	0	n/a
143.41334	1.5	10	120.jpg	n/a	n/a	n/a	0	0	n/a
146.61158	1.5	9	105.jpg	n/a	n/a	n/a	0	1	n/a
149.27392	1.5	11	131.jpg	n/a	n/a	n/a	0	1	n/a
152.16193	1.5	16	114.jpg	n/a	n/a	n/a	0	0	n/a
154.88182	1.5	10	120.jpg	n/a	n/a	n/a	0	0	n/a
158.00877	1.5	7	101.jpg	n/a	n/a	n/a	1	1	n/a
160.39706	1.5	3	106.jpg	2	0.60280385	0	1	1	162.89706
166.52774	1.5	5	136.jpg	n/a	n/a	n/a	1	1	n/a
168.8066	1.5	2	104.jpg	n/a	n/a	n/a	1	0	n/a
171.28863	1.5	6	110.jpg	n/a	n/a	n/a	1	0	n/a
173.84194	1.5	14	127.jpg	n/a	n/a	n/a	0	0	n/a
176.92235	1.5	12	135.jpg	n/a	n/a	n/a	0	0	n/a
178.7262	1.5	11	131.jpg	n/a	n/a	n/a	0	1	n/a
180.74678	1.5	15	122.jpg	n/a	n/a	n/a	0	1	n/a
183.92364	1.5	12	135.jpg	n/a	n/a	n/a	0	0	n/a
186.3873	1.5	16	114.jpg	n/a	n/a	n/a	0	0	n/a
188.80541	1.5	6	110.jpg	n/a	n/a	n/a	1	0	n/a
190.89201	1.5	8	137.jpg	n/a	n/a	n/a	1	0	n/a
193.15564	1.5	9	105.jpg	n/a	n/a	n/a	0	1	n/a
195.47183	1.5	11	131.jpg	n/a	n/a	n/a	0	1	n/a
198.32883	1.5	14	127.jpg	n/a	n/a	n/a	0	0	n/a
201.44501	1.5	10	120.jpg	n/a	n/a	n/a	0	0	n/a
203.21716	1.5	6	110.jpg	n/a	n/a	n/a	1	0	n/a
205.42829	1.5	14	127.jpg	1	0.45777514	0	0	0	207.92829
212.25509	1.5	4	112.jpg	n/a	n/a	n/a	1	0	n/a
214.38289	1.5	3	106.jpg	n/a	n/a	n/a	1	1	n/a
216.19508	1.5	1	132.jpg	n/a	n/a	n/a	1	1	n/a
218.76231	1.5	15	122.jpg	n/a	n/a	n/a	0	1	n/a
220.59216	1.5	9	105.jpg	n/a	n/a	n/a	0	1	n/a
223.14515	1.5	4	112.jpg	1	0.60802322	0	1	0	225.64515
230.32179	1.5	3	106.jpg	n/a	n/a	n/a	1	1	n/a
233.19879	1.5	5	136.jpg	n/a	n/a	n/a	1	1	n/a
235.20238	1.5	8	137.jpg	n/a	n/a	n/a	1	0	n/a
237.42252	1.5	2	104.jpg	n/a	n/a	n/a	1	0	n/a
240.4806	1.5	7	101.jpg	n/a	n/a	n/a	1	1	n/a
242.58718	1.5	9	105.jpg	1	0.59884287	1	0	1	245.08718
248.73781	1.5	3	106.jpg	n/a	n/a	n/a	1	1	n/a
251.53851	1.5	14	127.jpg	n/a	n/a	n/a	0	0	n/a
254.04869	1.5	16	114.jpg	n/a	n/a	n/a	0	0	n/a
256.58657	1.5	13	124.jpg	n/a	n/a	n/a	0	1	n/a
259.7603	1.5	15	122.jpg	n/a	n/a	n/a	0	1	n/a
261.80734	1.5	5	136.jpg	n/a	n/a	n/a	1	1	n/a
264.75765	1.5	7	101.jpg	n/a	n/a	n/a	1	1	n/a
267.748	1.5	11	131.jpg	n/a	n/a	n/a	0	1	n/a
270.64309	1.5	9	105.jpg	n/a	n/a	n/a	0	1	n/a
272.50266	1.5	10	120.jpg	n/a	n/a	n/a	0	0	n/a
275.52991	1.5	14	127.jpg	n/a	n/a	n/a	0	0	n/a
277.54654	1.5	2	104.jpg	n/a	n/a	n/a	1	0	n/a
280.11332	1.5	4	112.jpg	n/a	n/a	n/a	1	0	n/a
282.38962	1.5	15	122.jpg	n/a	n/a	n/a	0	1	n/a
285.04443	1.5	13	124.jpg	n/a	n/a	n/a	0	1	n/a
287.44489	1.5	1	132.jpg	1	0.55281583	1	1	1	289.94489
294.48524	1.5	16	114.jpg	n/a	n/a	n/a	0	0	n/a
296.62593	1.5	14	127.jpg	n/a	n/a	n/a	0	0	n/a
299.05973	1.5	3	106.jpg	n/a	n/a	n/a	1	1	n/a
301.03423	1.5	5	136.jpg	n/a	n/a	n/a	1	1	n/a
303.51676	1.5	4	112.jpg	n/a	n/a	n/a	1	0	n/a
305.66963	1.5	2	104.jpg	n/a	n/a	n/a	1	0	n/a
308.40094	1.5	7	101.jpg	n/a	n/a	n/a	1	1	n/a
310.94273	1.5	1	132.jpg	n/a	n/a	n/a	1	1	n/a
313.96993	1.5	12	135.jpg	n/a	n/a	n/a	0	0	n/a
316.86965	1.5	2	104.jpg	1	0.56202507	0	1	0	319.36965
323.17674	1.5	14	127.jpg	n/a	n/a	n/a	0	0	n/a
325.86041	1.5	6	110.jpg	n/a	n/a	n/a	1	0	n/a
328.72379	1.5	8	137.jpg	n/a	n/a	n/a	1	0	n/a
331.66365	1.5	14	127.jpg	n/a	n/a	n/a	0	0	n/a
334.59468	1.5	16	114.jpg	n/a	n/a	n/a	0	0	n/a
337.36655	1.5	9	105.jpg	n/a	n/a	n/a	0	1	n/a
340.06033	1.5	7	101.jpg	1	0.63200945	1	1	1	342.56033
346.23841	1.5	13	124.jpg	n/a	n/a	n/a	0	1	n/a
348.12826	1.5	10	120.jpg	n/a	n/a	n/a	0	0	n/a
350.48232	1.5	12	135.jpg	n/a	n/a	n/a	0	0	n/a
353.5991	1.5	4	112.jpg	n/a	n/a	n/a	1	0	n/a
356.73651	1.5	6	110.jpg	n/a	n/a	n/a	1	0	n/a
359.33009	1.5	13	124.jpg	n/a	n/a	n/a	0	1	n/a
361.42476	1.5	15	122.jpg	n/a	n/a	n/a	0	1	n/a
364.43411	1.5	1	132.jpg	n/a	n/a	n/a	1	1	n/a
367.56079	1.5	7	101.jpg	n/a	n/a	n/a	1	1	n/a
369.77031	1.5	4	112.jpg	n/a	n/a	n/a	1	0	n/a
371.91583	1.5	2	104.jpg	n/a	n/a	n/a	1	0	n/a
375.05071	1.5	1	132.jpg	n/a	n/a	n/a	1	1	n/a
377.91421	1.5	5	136.jpg	n/a	n/a	n/a	1	1	n/a
379.68215	1.5	11	131.jpg	n/a	n/a	n/a	0	1	n/a
382.74667	1.5	13	124.jpg	1	0.70321291	1	0	1	385.24667
388.89179	1.5	9	105.jpg	n/a	n/a	n/a	0	1	n/a
392.10546	1.5	5	136.jpg	n/a	n/a	n/a	1	1	n/a
394.4644	1.5	1	132.jpg	n/a	n/a	n/a	1	1	n/a
396.73049	1.5	8	137.jpg	n/a	n/a	n/a	1	0	n/a
399.78773	1.5	2	104.jpg	n/a	n/a	n/a	1	0	n/a
402.73702	1.5	10	120.jpg	1	0.60115769	0	0	0	405.23702
408.8604	1.5	16	114.jpg	n/a	n/a	n/a	0	0	n/a
411.73571	1.5	10	120.jpg	n/a	n/a	n/a	0	0	n/a
413.97018	1.5	15	122.jpg	n/a	n/a	n/a	0	1	n/a
416.12131	1.5	13	124.jpg	n/a	n/a	n/a	0	1	n/a
418.37463	1.5	5	136.jpg	n/a	n/a	n/a	1	1	n/a
420.35072	1.5	7	101.jpg	n/a	n/a	n/a	1	1	n/a
422.53484	1.5	4	112.jpg	n/a	n/a	n/a	1	0	n/a
424.8674	1.5	8	137.jpg	n/a	n/a	n/a	1	0	n/a
427.85065	1.5	13	124.jpg	n/a	n/a	n/a	0	1	n/a
430.54781	1.5	15	122.jpg	1	0.53587714	1	0	1	433.04781
437.22082	1.5	11	131.jpg	n/a	n/a	n/a	0	1	n/a
439.24816	1.5	16	114.jpg	n/a	n/a	n/a	0	0	n/a
441.79776	1.5	14	127.jpg	n/a	n/a	n/a	0	0	n/a
444.29776	1.5	3	106.jpg	n/a	n/a	n/a	1	1	n/a
446.17181	1.5	7	101.jpg	n/a	n/a	n/a	1	1	n/a
448.387	1.5	8	137.jpg	n/a	n/a	n/a	1	0	n/a
451.62683	1.5	4	112.jpg	n/a	n/a	n/a	1	0	n/a
454.34285	1.5	12	135.jpg	1	0.60914592	0	0	0	456.84285
461.53681	1.5	15	122.jpg	n/a	n/a	n/a	0	1	n/a
463.72465	1.5	11	131.jpg	n/a	n/a	n/a	0	1	n/a
465.9852	1.5	12	135.jpg	n/a	n/a	n/a	0	0	n/a
468.70356	1.5	10	120.jpg	n/a	n/a	n/a	0	0	n/a
